# Binned (from 5-pixel column-level) transit depths for mornings and evenings.
# These depths are at a resolution of 100. 
# 
#
# Original fits preformed with catwoman (https://catwoman.readthedocs.io/) to the Data Synthesis NIRSpec/PRISM dataset.
#
# Author: Nestor Espinoza (nespinoza@stsci.edu)
#
# Column 0:  Wavelength (um)
# Column 1:  Evening depths (ppm)
# Column 2:  Error on evening depths (ppm)
# Column 3:  Morning depths (ppm)
# Column 4:  Error on morning depths (ppm)
# Column 5:  Covariance between Morning and Evening depths (ppm^2)
# Column 6:  Difference between Evening and Morning depths (ppm)
# Column 7:  Error on the Difference (ppm)
#
0.5257 10983.2241 831.9406 10193.1245 1008.6694 -814249.5138 770.5997 1819.2158
0.5440 10719.4518 509.4083 10801.7756 649.9644 -323218.2332 -95.6570 1145.8181
0.5644 11049.6967 388.9218 10433.4022 508.6137 -194142.9049 606.8686 884.3815
0.5871 11373.3531 325.1795 10106.3516 435.0994 -139364.4567 1259.1286 749.8401
0.6126 10906.0872 290.8156 10441.8075 391.0107 -112112.9092 452.3611 675.4455
0.6416 10708.6360 262.7157 10508.5381 356.0923 -92307.0781 190.3946 615.7081
0.6746 10898.2571 232.4300 10191.9858 315.0801 -72292.2559 698.6207 543.0160
0.7127 10493.5381 209.2903 10763.4469 284.5954 -58716.4075 -278.8175 488.5591
0.7568 10976.2965 293.6317 9953.6134 388.7679 -112103.7488 1006.6095 675.6176
0.8083 10713.7332 269.0221 10258.1185 357.7488 -94486.9169 448.9575 623.5773
0.8687 10573.4689 246.5819 10293.5663 325.8915 -78668.3596 271.3255 561.9354
0.9394 10911.0061 227.0365 10187.4314 302.1941 -67271.8415 713.8080 523.2588
1.0216 10466.4219 211.2443 10497.9434 282.1195 -58419.9492 -36.8888 489.0033
1.1155 10728.3221 206.2952 10517.9273 273.9652 -55335.3703 195.0674 473.2685
1.2201 10671.9361 183.0387 10517.8110 244.4680 -43779.9837 143.3723 424.1860
1.3329 10789.2963 179.3030 10779.1971 236.0981 -41311.0540 4.4104 409.5463
1.4509 11034.2365 190.3814 10441.6857 254.5796 -47497.6938 583.6663 441.1495
1.5709 10273.7960 181.0814 10843.0294 236.8984 -41808.4606 -571.7446 412.8818
1.6905 10575.9809 188.5642 10345.1872 245.2552 -44994.2409 223.7802 426.6439
1.8080 10492.9763 160.1071 10992.2329 208.5341 -32394.7381 -504.1260 362.1433
1.9226 10963.3320 129.6450 10599.9680 173.0964 -21934.7159 359.2618 298.1128
2.0337 10706.2115 132.0642 10401.1072 175.7236 -22658.9767 299.2966 303.7878
2.1411 10572.4714 131.2238 10533.5359 173.0713 -22102.6872 35.5536 300.0050
2.2450 10526.0228 137.7600 10446.6575 180.7330 -24227.7969 73.4855 311.5933
2.3454 10847.2968 148.7570 10354.1278 195.2058 -28282.8338 488.5920 340.3488
2.4426 10922.1041 157.5587 10457.9661 206.7063 -31692.8814 453.7866 358.1157
2.5366 10964.1663 158.7959 10750.9408 205.6445 -31655.9247 202.5768 359.6366
2.6278 11142.0254 165.0626 10732.1793 214.0648 -34250.8727 404.8489 372.8021
2.7163 11170.1812 172.7795 10791.3341 224.2455 -37561.0706 374.4680 388.8836
2.8022 11232.2294 188.7509 10893.1161 243.2232 -44491.5392 337.9164 427.0716
2.8858 10796.5791 182.9636 11283.3711 232.2789 -40974.8350 -491.9808 409.0543
2.9672 10893.7981 195.8816 10906.0752 247.2231 -46712.4159 -18.1966 437.9226
3.0466 11011.9870 214.7286 10698.4306 274.7886 -57165.2623 303.0800 481.9727
3.1240 11056.9521 213.8106 10474.4900 270.1802 -55735.6567 577.7119 477.4709
3.1996 10637.9762 213.7576 10844.1393 269.2793 -55569.6482 -216.5112 474.4813
3.2735 10681.5662 225.9136 10607.3607 282.1839 -61420.3547 64.6781 501.3510
3.3458 10954.4103 243.9653 10324.4535 308.6003 -72877.6065 623.7409 548.2201
3.4166 10402.7135 220.1760 11031.0246 272.7402 -57509.5153 -631.2623 487.8436
3.5030 10491.1086 202.0943 10941.6042 251.1852 -48901.5768 -461.1202 447.2863
3.6040 11011.8205 217.6918 10227.0757 272.2766 -57103.9483 776.2449 485.6037
3.7023 10548.1288 225.0991 10631.6080 278.6458 -60269.9014 -87.3567 495.3394
3.7979 10580.8400 238.4940 10519.9302 294.7287 -67612.1453 49.8250 529.5091
3.8911 10913.0700 261.4193 10051.9619 325.9306 -82111.5624 853.1962 580.5456
3.9821 10662.5877 260.5620 10676.1068 317.0265 -79242.9802 -25.7406 572.6819
4.0709 11226.1701 279.4242 9991.4605 343.7163 -92360.0739 1225.0150 613.3991
4.1578 10591.4776 269.3694 10776.5793 328.2759 -84507.1438 -195.6705 585.0689
4.2428 11510.5132 288.2692 10550.9801 354.6543 -97937.8206 950.2202 629.6045
4.3260 11546.5929 297.0725 11158.3817 363.5921 -103113.8326 379.0839 648.1260
4.4075 12361.8847 341.3202 10137.9886 423.3558 -138843.8575 2212.2737 747.7329
4.4875 11760.0188 358.3897 10071.8828 441.4701 -151868.0259 1677.3824 789.2152
4.5660 11008.6734 350.1821 10679.5927 426.9045 -142640.8654 316.2235 759.5040
4.6430 11012.6280 355.5269 10546.8353 431.5275 -146013.8506 448.5751 772.1385
4.7187 11324.2144 391.0701 10071.7839 474.6349 -177349.7289 1233.8465 847.4004
4.7931 11039.6773 385.4205 10618.4188 464.8141 -170884.7370 405.7247 838.5045
4.8783 10878.0507 354.3984 10505.1376 429.0242 -144783.4542 356.1793 771.2603
4.9737 11443.0319 367.6158 9889.7859 441.1173 -154444.6291 1538.4004 790.2960
5.0672 10579.0492 356.3328 10879.5969 420.0327 -141015.6743 -318.9988 754.0056
5.1588 11213.0301 412.2805 9979.2104 490.5741 -192082.7678 1230.9686 881.1671
5.2486 10955.6951 400.9391 10563.1177 472.7702 -179220.5351 379.8075 858.0955
